File: FapatiteJ.csv
2-theta,Experimental XRD,Fit,Difference,Background
1.50000E+1,6.09000E+2,6.15139E+2,-6.13947E+0,6.15139E+2
1.51400E+1,6.35000E+2,6.08141E+2,2.68594E+1,6.08141E+2
1.52800E+1,5.98000E+2,6.01213E+2,-3.21277E+0,6.01213E+2
1.54200E+1,6.33000E+2,5.94356E+2,3.86445E+1,5.94356E+2
1.55600E+1,5.74000E+2,5.87569E+2,-1.35689E+1,5.87569E+2
1.57000E+1,5.80000E+2,5.80853E+2,-8.52600E-1,5.80853E+2
1.58400E+1,6.17000E+2,5.74206E+2,4.27942E+1,5.74206E+2
1.59800E+1,5.91000E+2,5.67629E+2,2.33711E+1,5.67629E+2
1.61200E+1,6.30000E+2,5.63044E+2,6.69556E+1,5.61121E+2
1.62600E+1,6.37000E+2,5.58950E+2,7.80497E+1,5.54683E+2
1.64000E+1,5.57000E+2,5.55704E+2,1.29633E+0,5.48314E+2
1.65400E+1,5.53000E+2,5.57765E+2,-4.76520E+0,5.42013E+2
1.66800E+1,6.22000E+2,5.89605E+2,3.23950E+1,5.35780E+2
1.68200E+1,1.35400E+3,1.37381E+3,-1.98077E+1,5.29616E+2
1.69600E+1,5.68000E+2,5.42977E+2,2.50229E+1,5.23519E+2
1.71000E+1,5.40000E+2,5.21466E+2,1.85337E+1,5.17489E+2
1.72400E+1,4.96000E+2,5.11526E+2,-1.55265E+1,5.11526E+2
1.73800E+1,4.86000E+2,5.05631E+2,-1.96305E+1,5.05631E+2
1.75200E+1,5.06000E+2,4.99801E+2,6.19928E+0,4.99801E+2
1.76600E+1,5.20000E+2,4.94037E+2,2.59629E+1,4.94037E+2
1.78000E+1,5.00000E+2,4.88339E+2,1.16610E+1,4.88339E+2
1.79400E+1,5.17000E+2,4.82706E+2,3.42938E+1,4.82706E+2
1.80800E+1,5.22000E+2,4.77138E+2,4.48617E+1,4.77138E+2
1.82200E+1,4.35000E+2,4.72763E+2,-3.77626E+1,4.71635E+2
1.83600E+1,5.01000E+2,4.68767E+2,3.22332E+1,4.66195E+2
1.85000E+1,4.60000E+2,4.65534E+2,-5.53403E+0,4.60820E+2
1.86400E+1,4.90000E+2,4.66763E+2,2.32370E+1,4.55507E+2
1.87800E+1,5.68000E+2,5.11639E+2,5.63606E+1,4.50258E+2
1.89200E+1,6.58000E+2,7.12533E+2,-5.45334E+1,4.45071E+2
1.90600E+1,4.51000E+2,4.46723E+2,4.27704E+0,4.39946E+2
1.92000E+1,4.37000E+2,4.36836E+2,1.63940E-1,4.34883E+2
1.93400E+1,4.04000E+2,4.29881E+2,-2.58812E+1,4.29881E+2
1.94800E+1,4.53000E+2,4.24940E+2,2.80595E+1,4.24940E+2
1.96200E+1,4.56000E+2,4.20060E+2,3.59402E+1,4.20060E+2
1.97600E+1,4.19000E+2,4.15240E+2,3.76050E+0,4.15240E+2
1.99000E+1,3.98000E+2,4.10479E+2,-1.24786E+1,4.10479E+2
2.00400E+1,3.93000E+2,4.05777E+2,-1.27767E+1,4.05777E+2
2.01800E+1,3.81000E+2,4.01134E+2,-2.01337E+1,4.01134E+2
2.03200E+1,4.15000E+2,3.96549E+2,1.84510E+1,3.96549E+2
2.04600E+1,3.98000E+2,3.92022E+2,5.97784E+0,3.92022E+2
2.06000E+1,3.87000E+2,3.87552E+2,-5.52460E-1,3.87552E+2
2.07400E+1,3.66000E+2,3.83140E+2,-1.71398E+1,3.83140E+2
2.08800E+1,3.53000E+2,3.78784E+2,-2.57837E+1,3.78784E+2
2.10200E+1,3.48000E+2,3.74484E+2,-2.64835E+1,3.74484E+2
2.11600E+1,3.40000E+2,3.70239E+2,-3.02390E+1,3.70239E+2
2.13000E+1,3.58000E+2,3.73169E+2,-1.51688E+1,3.66049E+2
2.14400E+1,3.34000E+2,3.74607E+2,-4.06071E+1,3.61915E+2
2.15800E+1,3.92000E+2,3.86516E+2,5.48438E+0,3.57834E+2
2.17200E+1,4.95000E+2,4.72424E+2,2.25757E+1,3.53807E+2
2.18600E+1,1.75700E+3,1.60559E+3,1.51412E+2,3.49833E+2
2.20000E+1,4.07000E+2,3.85507E+2,2.14927E+1,3.45912E+2
2.21400E+1,3.38000E+2,3.51639E+2,-1.36392E+1,3.42043E+2
2.22800E+1,3.38000E+2,3.44239E+2,-6.23892E+0,3.38227E+2
2.24200E+1,3.34000E+2,3.44583E+2,-1.05832E+1,3.34461E+2
2.25600E+1,3.37000E+2,3.50517E+2,-1.35170E+1,3.30747E+2
2.27000E+1,3.74000E+2,3.81399E+2,-7.39938E+0,3.27082E+2
2.28400E+1,8.52000E+2,9.56833E+2,-1.04833E+2,3.23468E+2
2.29800E+1,7.75000E+2,7.59694E+2,1.53060E+1,3.19903E+2
2.31200E+1,3.17000E+2,3.38337E+2,-2.13374E+1,3.16388E+2
2.32600E+1,3.21000E+2,3.20579E+2,4.20593E-1,3.12920E+2
2.34000E+1,3.06000E+2,3.09501E+2,-3.50119E+0,3.09501E+2
2.35400E+1,3.25000E+2,3.06130E+2,1.88704E+1,3.06130E+2
2.36800E+1,3.40000E+2,3.02805E+2,3.71949E+1,3.02805E+2
2.38200E+1,3.06000E+2,2.99527E+2,6.47284E+0,2.99527E+2
2.39600E+1,2.95000E+2,2.96295E+2,-1.29544E+0,2.96295E+2
2.41000E+1,2.69000E+2,2.93109E+2,-2.41093E+1,2.93109E+2
2.42400E+1,2.99000E+2,2.89968E+2,9.03156E+0,2.89968E+2
2.43800E+1,2.90000E+2,2.86872E+2,3.12772E+0,2.86872E+2
2.45200E+1,2.58000E+2,2.83820E+2,-2.58203E+1,2.83820E+2
2.46600E+1,2.83000E+2,2.80812E+2,2.18774E+0,2.80812E+2
2.48000E+1,2.84000E+2,2.77847E+2,6.15262E+0,2.77847E+2
2.49400E+1,2.71000E+2,2.77539E+2,-6.53857E+0,2.74925E+2
2.50800E+1,2.61000E+2,2.77155E+2,-1.61548E+1,2.72046E+2
2.52200E+1,3.20000E+2,3.06686E+2,1.33140E+1,2.69208E+2
2.53600E+1,4.90000E+2,4.90531E+2,-5.30792E-1,2.66412E+2
2.55000E+1,5.24000E+2,5.23901E+2,9.88159E-2,2.63656E+2
2.56400E+1,6.27000E+2,6.01240E+2,2.57595E+1,2.60942E+2
2.57800E+1,6.18300E+3,5.76027E+3,4.22725E+2,2.58267E+2
2.59200E+1,1.79600E+3,1.76285E+3,3.31462E+1,2.55632E+2
2.60600E+1,4.07000E+2,3.67347E+2,3.96531E+1,2.53036E+2
2.62000E+1,2.87000E+2,2.93034E+2,-6.03436E+0,2.50478E+2
2.63400E+1,2.47000E+2,2.47959E+2,-9.58893E-1,2.47959E+2
2.64800E+1,2.51000E+2,2.45477E+2,5.52264E+0,2.45477E+2
2.66200E+1,2.49000E+2,2.43033E+2,5.96692E+0,2.43033E+2
2.67600E+1,2.44000E+2,2.40626E+2,3.37424E+0,2.40626E+2
2.69000E+1,2.23000E+2,2.38255E+2,-1.52548E+1,2.38255E+2
2.70400E+1,2.55000E+2,2.35920E+2,1.90803E+1,2.35920E+2
2.71800E+1,2.49000E+2,2.33620E+2,1.53798E+1,2.33620E+2
2.73200E+1,2.47000E+2,2.31356E+2,1.56443E+1,2.31356E+2
2.74600E+1,2.38000E+2,2.29126E+2,8.87411E+0,2.29126E+2
2.76000E+1,2.21000E+2,2.41304E+2,-2.03041E+1,2.26930E+2
2.77400E+1,2.45000E+2,2.52204E+2,-7.20370E+0,2.24768E+2
2.78800E+1,3.11000E+2,2.94469E+2,1.65305E+1,2.22639E+2
2.80200E+1,8.58000E+2,8.64410E+2,-6.41016E+0,2.20544E+2
2.81600E+1,1.58500E+3,1.63213E+3,-4.71348E+1,2.18480E+2
2.83000E+1,3.29000E+2,2.73385E+2,5.56145E+1,2.16449E+2
2.84400E+1,2.19000E+2,2.32410E+2,-1.34103E+1,2.14449E+2
2.85800E+1,2.66000E+2,2.35860E+2,3.01396E+1,2.12480E+2
2.87200E+1,2.86000E+2,2.49951E+2,3.60493E+1,2.10543E+2
2.88600E+1,3.46000E+2,3.21868E+2,2.41322E+1,2.08635E+2
2.90000E+1,2.06200E+3,1.86259E+3,1.99409E+2,2.06757E+2
2.91400E+1,1.46600E+3,1.34245E+3,1.23554E+2,2.04909E+2
2.92800E+1,2.85000E+2,2.60768E+2,2.42315E+1,2.03090E+2
2.94200E+1,2.21000E+2,2.21570E+2,-5.69824E-1,2.01299E+2
2.95600E+1,2.00000E+2,2.03696E+2,-3.69629E+0,1.99537E+2
2.97000E+1,1.90000E+2,1.97803E+2,-7.80307E+0,1.97803E+2
2.98400E+1,1.79000E+2,1.96096E+2,-1.70963E+1,1.96096E+2
2.99800E+1,1.85000E+2,1.94417E+2,-9.41660E+0,1.94417E+2
3.01200E+1,2.06000E+2,1.92764E+2,1.32365E+1,1.92764E+2
3.02600E+1,2.17000E+2,1.91137E+2,2.58632E+1,1.91137E+2
3.04000E+1,1.87000E+2,1.89536E+2,-2.53595E+0,1.89536E+2
3.05400E+1,1.68000E+2,1.87961E+2,-1.99606E+1,1.87961E+2
3.06800E+1,1.93000E+2,1.86411E+2,6.58945E+0,1.86411E+2
3.08200E+1,1.73000E+2,1.84885E+2,-1.18852E+1,1.84885E+2
3.09600E+1,1.88000E+2,1.83384E+2,4.61578E+0,1.83384E+2
3.11000E+1,2.06000E+2,1.81907E+2,2.40928E+1,1.81907E+2
3.12400E+1,2.09000E+2,1.80454E+2,2.85461E+1,1.80454E+2
3.13800E+1,2.36000E+2,2.91337E+2,-5.53369E+1,1.79024E+2
3.15200E+1,3.69000E+2,3.91352E+2,-2.23517E+1,1.77617E+2
3.16600E+1,8.36000E+2,7.61768E+2,7.42317E+1,1.76232E+2
3.18000E+1,4.89500E+3,5.10880E+3,-2.13802E+2,1.74870E+2
3.19400E+1,1.06910E+4,1.19265E+4,-1.23549E+3,1.73530E+2
3.20800E+1,1.43500E+3,1.41460E+3,2.04039E+1,1.72211E+2
3.22200E+1,7.09900E+3,6.77927E+3,3.19731E+2,1.70913E+2
3.23600E+1,7.63000E+2,6.91065E+2,7.19347E+1,1.69636E+2
3.25000E+1,3.42000E+2,3.07294E+2,3.47065E+1,1.68380E+2
3.26400E+1,2.94000E+2,3.09260E+2,-1.52595E+1,1.67144E+2
3.27800E+1,5.18000E+2,3.89662E+2,1.28338E+2,1.65927E+2
3.29200E+1,1.00100E+3,1.06414E+3,-6.31350E+1,1.64730E+2
3.30600E+1,1.17860E+4,1.09589E+4,8.27149E+2,1.63553E+2
3.32000E+1,1.03800E+3,1.09204E+3,-5.40352E+1,1.62394E+2
3.33400E+1,3.32000E+2,3.20367E+2,1.16328E+1,1.61253E+2
3.34800E+1,2.36000E+2,2.27231E+2,8.76938E+0,1.60131E+2
3.36200E+1,2.21000E+2,1.90379E+2,3.06210E+1,1.59027E+2
3.37600E+1,2.33000E+2,2.20239E+2,1.27613E+1,1.57941E+2
3.39000E+1,3.77000E+2,3.36727E+2,4.02735E+1,1.56871E+2
3.40400E+1,2.86200E+3,2.87915E+3,-1.71484E+1,1.55819E+2
3.41800E+1,2.61600E+3,2.62911E+3,-1.31079E+1,1.54783E+2
3.43200E+1,3.04000E+2,2.69081E+2,3.49191E+1,1.53764E+2
3.44600E+1,1.84000E+2,1.91845E+2,-7.84485E+0,1.52761E+2
3.46000E+1,1.59000E+2,1.59986E+2,-9.85977E-1,1.51774E+2
3.47400E+1,1.36000E+2,1.50802E+2,-1.48018E+1,1.50802E+2
3.48800E+1,1.45000E+2,1.49845E+2,-4.84525E+0,1.49845E+2
3.50200E+1,1.41000E+2,1.51433E+2,-1.04330E+1,1.48904E+2
3.51600E+1,1.75000E+2,1.53952E+2,2.10482E+1,1.47977E+2
3.53000E+1,1.73000E+2,1.59808E+2,1.31923E+1,1.47064E+2
3.54400E+1,2.13000E+2,1.90403E+2,2.25966E+1,1.46166E+2
3.55800E+1,1.07700E+3,9.97446E+2,7.95538E+1,1.45282E+2
3.57200E+1,2.85000E+2,3.03401E+2,-1.84015E+1,1.44411E+2
3.58600E+1,1.42000E+2,1.57431E+2,-1.54309E+1,1.43554E+2
3.60000E+1,1.29000E+2,1.48101E+2,-1.91008E+1,1.42709E+2
3.61400E+1,1.32000E+2,1.43070E+2,-1.10700E+1,1.41878E+2
3.62800E+1,1.21000E+2,1.41059E+2,-2.00592E+1,1.41059E+2
3.64200E+1,1.15000E+2,1.40253E+2,-2.52528E+1,1.40253E+2
3.65600E+1,1.31000E+2,1.39458E+2,-8.45848E+0,1.39458E+2
3.67000E+1,1.23000E+2,1.38676E+2,-1.56761E+1,1.38676E+2
3.68400E+1,1.34000E+2,1.37905E+2,-3.90544E+0,1.37905E+2
3.69800E+1,1.43000E+2,1.37146E+2,5.85388E+0,1.37146E+2
3.71200E+1,1.46000E+2,1.36398E+2,9.60193E+0,1.36398E+2
3.72600E+1,1.15000E+2,1.35661E+2,-2.06609E+1,1.35661E+2
3.74000E+1,1.33000E+2,1.34935E+2,-1.93457E+0,1.34935E+2
3.75400E+1,1.38000E+2,1.34219E+2,3.78125E+0,1.34219E+2
3.76800E+1,1.19000E+2,1.33513E+2,-1.45132E+1,1.33513E+2
3.78200E+1,1.15000E+2,1.32972E+2,-1.79721E+1,1.32818E+2
3.79600E+1,1.06000E+2,1.32508E+2,-2.65082E+1,1.32132E+2
3.81000E+1,1.35000E+2,1.32331E+2,2.66910E+0,1.31457E+2
3.82400E+1,1.27000E+2,1.34872E+2,-7.87248E+0,1.30790E+2
3.83800E+1,1.60000E+2,1.56861E+2,3.13852E+0,1.30133E+2
3.85200E+1,1.14000E+2,1.32867E+2,-1.88674E+1,1.29485E+2
3.86600E+1,1.15000E+2,1.29440E+2,-1.44396E+1,1.28846E+2
3.88000E+1,1.34000E+2,1.34045E+2,-4.47693E-2,1.28216E+2
3.89400E+1,1.43000E+2,1.42355E+2,6.44501E-1,1.27594E+2
3.90800E+1,2.12000E+2,1.69057E+2,4.29432E+1,1.26980E+2
3.92200E+1,7.83000E+2,7.42510E+2,4.04896E+1,1.26375E+2
3.93600E+1,7.40000E+2,7.99410E+2,-5.94096E+1,1.25778E+2
3.95000E+1,1.73000E+2,1.79841E+2,-6.84079E+0,1.25188E+2
3.96400E+1,1.78000E+2,1.86569E+2,-8.56920E+0,1.24606E+2
3.97800E+1,3.03000E+2,2.63164E+2,3.98360E+1,1.24032E+2
3.99200E+1,1.51900E+3,1.56429E+3,-4.52905E+1,1.23465E+2
4.00600E+1,2.39700E+3,2.39408E+3,2.92334E+0,1.22904E+2
4.02000E+1,3.14000E+2,2.94471E+2,1.95290E+1,1.22351E+2
4.03400E+1,1.43000E+2,1.82220E+2,-3.92205E+1,1.21805E+2
4.04800E+1,1.68000E+2,1.95927E+2,-2.79272E+1,1.21265E+2
4.06200E+1,6.75000E+2,6.84074E+2,-9.07434E+0,1.20732E+2
4.07600E+1,2.77000E+2,2.72031E+2,4.96948E+0,1.20206E+2
4.09000E+1,1.57000E+2,1.58666E+2,-1.66617E+0,1.19685E+2
4.10400E+1,1.09000E+2,1.25165E+2,-1.61649E+1,1.19170E+2
4.11800E+1,1.22000E+2,1.20211E+2,1.78864E+0,1.18662E+2
4.13200E+1,9.90000E+1,1.18267E+2,-1.92671E+1,1.18159E+2
4.14600E+1,9.60000E+1,1.17662E+2,-2.16618E+1,1.17662E+2
4.16000E+1,1.04000E+2,1.20921E+2,-1.69210E+1,1.17170E+2
4.17400E+1,1.11000E+2,1.25422E+2,-1.44223E+1,1.16684E+2
4.18800E+1,1.40000E+2,1.35728E+2,4.27158E+0,1.16203E+2
4.20200E+1,1.68000E+2,1.83863E+2,-1.58630E+1,1.15727E+2
4.21600E+1,1.36000E+3,1.33512E+3,2.48832E+1,1.15256E+2
4.23000E+1,5.69000E+2,5.12209E+2,5.67908E+1,1.14790E+2
4.24400E+1,3.63000E+2,3.18849E+2,4.41510E+1,1.14329E+2
4.25800E+1,1.44000E+2,1.61031E+2,-1.70308E+1,1.13872E+2
4.27200E+1,1.22000E+2,1.19484E+2,2.51553E+0,1.13420E+2
4.28600E+1,1.30000E+2,1.14583E+2,1.54169E+1,1.12972E+2
4.30000E+1,1.13000E+2,1.12905E+2,9.46198E-2,1.12529E+2
4.31400E+1,9.10000E+1,1.12090E+2,-2.10901E+1,1.12090E+2
4.32800E+1,9.30000E+1,1.11655E+2,-1.86551E+1,1.11655E+2
4.34200E+1,1.03000E+2,1.18433E+2,-1.54325E+1,1.11224E+2
4.35600E+1,1.13000E+2,1.26061E+2,-1.30614E+1,1.10797E+2
4.37000E+1,1.48000E+2,1.62765E+2,-1.47650E+1,1.10374E+2
4.38400E+1,1.06700E+3,1.12263E+3,-5.56272E+1,1.09954E+2
4.39800E+1,5.55000E+2,5.18394E+2,3.66056E+1,1.09539E+2
4.41200E+1,1.22000E+2,1.33333E+2,-1.13325E+1,1.09126E+2
4.42600E+1,1.15000E+2,1.20730E+2,-5.73048E+0,1.08717E+2
4.44000E+1,1.15000E+2,1.21297E+2,-6.29681E+0,1.08312E+2
4.45400E+1,3.00000E+2,2.78088E+2,2.19121E+1,1.07910E+2
4.46800E+1,2.60000E+2,2.63614E+2,-3.61383E+0,1.07511E+2
4.48200E+1,1.37000E+2,1.20780E+2,1.62195E+1,1.07115E+2
4.49600E+1,1.15000E+2,1.17483E+2,-2.48306E+0,1.06722E+2
4.51000E+1,1.34000E+2,1.26313E+2,7.68708E+0,1.06332E+2
4.52400E+1,2.37000E+2,2.51515E+2,-1.45147E+1,1.05945E+2
4.53800E+1,3.57000E+2,3.62825E+2,-5.82507E+0,1.05561E+2
4.55200E+1,1.33000E+2,1.51746E+2,-1.87464E+1,1.05180E+2
4.56600E+1,1.15000E+2,1.14626E+2,3.73772E-1,1.04801E+2
4.58000E+1,1.17000E+2,1.08815E+2,8.18513E+0,1.04425E+2
4.59400E+1,9.80000E+1,1.05128E+2,-7.12801E+0,1.04052E+2
4.60800E+1,9.40000E+1,1.03909E+2,-9.90903E+0,1.03681E+2
4.62200E+1,1.17000E+2,1.03869E+2,1.31310E+1,1.03312E+2
4.63600E+1,1.28000E+2,1.31129E+2,-3.12917E+0,1.02946E+2
4.65000E+1,1.71000E+2,1.80101E+2,-9.10083E+0,1.02583E+2
4.66400E+1,3.59000E+2,3.20147E+2,3.88527E+1,1.02221E+2
4.67800E+1,2.94200E+3,2.87837E+3,6.36252E+1,1.01862E+2
4.69200E+1,2.38700E+3,2.55020E+3,-1.63196E+2,1.01505E+2
4.70600E+1,3.42000E+2,3.28616E+2,1.33838E+1,1.01150E+2
4.72000E+1,1.77000E+2,1.64134E+2,1.28662E+1,1.00797E+2
4.73400E+1,1.25000E+2,1.30556E+2,-5.55649E+0,1.00447E+2
4.74800E+1,9.90000E+1,1.00098E+2,-1.09786E+0,1.00098E+2
4.76200E+1,1.18000E+2,9.97511E+1,1.82489E+1,9.97511E+1
4.77600E+1,1.26000E+2,1.12001E+2,1.39992E+1,9.94062E+1
4.79000E+1,1.19000E+2,1.31474E+2,-1.24739E+1,9.90632E+1
4.80400E+1,2.17000E+2,1.91380E+2,2.56204E+1,9.87221E+1
4.81800E+1,1.52700E+3,1.43119E+3,9.58101E+1,9.83828E+1
4.83200E+1,1.20600E+3,1.17303E+3,3.29741E+1,9.80452E+1
4.84600E+1,2.04000E+2,2.14557E+2,-1.05565E+1,9.77093E+1
4.86000E+1,1.62000E+2,1.43486E+2,1.85144E+1,9.73752E+1
4.87400E+1,2.05000E+2,2.00710E+2,4.29008E+0,9.70427E+1
4.88800E+1,4.04000E+2,3.84095E+2,1.99050E+1,9.67119E+1
4.90200E+1,2.41000E+2,2.21293E+2,1.97069E+1,9.63827E+1
4.91600E+1,1.77000E+2,1.78114E+2,-1.11433E+0,9.60551E+1
4.93000E+1,3.24000E+2,2.76832E+2,4.71678E+1,9.57291E+1
4.94400E+1,1.30100E+3,1.32939E+3,-2.83939E+1,9.54046E+1
4.95800E+1,1.99000E+3,2.26110E+3,-2.71101E+2,9.50816E+1
4.97200E+1,7.28000E+2,7.64304E+2,-3.63036E+1,9.47601E+1
4.98600E+1,2.03000E+2,2.00169E+2,2.83081E+0,9.44401E+1
5.00000E+1,1.34000E+2,1.39623E+2,-5.62283E+0,9.41216E+1
5.01400E+1,1.15000E+2,1.05120E+2,9.87955E+0,9.38044E+1
5.02800E+1,1.20000E+2,1.17759E+2,2.24142E+0,9.34887E+1
5.04200E+1,1.73000E+2,1.43997E+2,2.90034E+1,9.31745E+1
5.05600E+1,2.67000E+2,2.63011E+2,3.98944E+0,9.28615E+1
5.07000E+1,3.48300E+3,3.34663E+3,1.36371E+2,9.25500E+1
5.08400E+1,1.77900E+3,1.85191E+3,-7.29132E+1,9.22399E+1
5.09800E+1,2.00000E+2,2.03639E+2,-3.63913E+0,9.19311E+1
5.11200E+1,1.50000E+2,1.46877E+2,3.12335E+0,9.16236E+1
5.12600E+1,1.77000E+2,1.48922E+2,2.80781E+1,9.13174E+1
5.14000E+1,3.14000E+2,2.96818E+2,1.71823E+1,9.10126E+1
5.15400E+1,2.51400E+3,2.12986E+3,3.84141E+2,9.07091E+1
5.16800E+1,1.35900E+3,1.09502E+3,2.63978E+2,9.04069E+1
5.18200E+1,2.03000E+2,1.72675E+2,3.03253E+1,9.01060E+1
5.19600E+1,1.71000E+2,1.58616E+2,1.23843E+1,8.98064E+1
5.21000E+1,2.79000E+2,2.69872E+2,9.12830E+0,8.95081E+1
5.22400E+1,2.56400E+3,2.74044E+3,-1.76436E+2,8.92110E+1
5.23800E+1,1.39700E+3,1.48646E+3,-8.94554E+1,8.89152E+1
5.25200E+1,1.84000E+2,1.78725E+2,5.27541E+0,8.86208E+1
5.26600E+1,1.18000E+2,1.33452E+2,-1.54517E+1,8.83275E+1
5.28000E+1,1.53000E+2,1.37411E+2,1.55888E+1,8.80356E+1
5.29400E+1,2.33000E+2,2.10132E+2,2.28679E+1,8.77449E+1
5.30800E+1,2.12800E+3,1.85392E+3,2.74083E+2,8.74555E+1
5.32200E+1,1.21900E+3,1.13912E+3,7.98843E+1,8.71674E+1
5.33600E+1,4.06000E+2,4.02448E+2,3.55176E+0,8.68806E+1
5.35000E+1,2.16000E+2,2.07578E+2,8.42154E+0,8.65950E+1
5.36400E+1,9.60000E+1,1.10994E+2,-1.49945E+1,8.63107E+1
5.37800E+1,7.50000E+1,9.30694E+1,-1.80694E+1,8.60277E+1
5.39200E+1,9.60000E+1,8.66156E+1,9.38444E+0,8.57460E+1
5.40600E+1,8.80000E+1,8.63828E+1,1.61716E+0,8.54656E+1
5.42000E+1,8.50000E+1,8.76393E+1,-2.63929E+0,8.51864E+1
5.43400E+1,1.09000E+2,1.09882E+2,-8.82263E-1,8.49086E+1
5.44800E+1,1.15000E+2,1.03825E+2,1.11747E+1,8.46320E+1
5.46200E+1,9.20000E+1,9.14122E+1,5.87791E-1,8.43568E+1
5.47600E+1,7.30000E+1,8.52883E+1,-1.22883E+1,8.40829E+1
5.49000E+1,7.80000E+1,8.43383E+1,-6.33829E+0,8.38103E+1
5.50400E+1,7.50000E+1,8.36750E+1,-8.67496E+0,8.35391E+1
5.51800E+1,7.60000E+1,8.32691E+1,-7.26915E+0,8.32691E+1
5.53200E+1,7.00000E+1,8.30006E+1,-1.30006E+1,8.30006E+1
5.54600E+1,8.40000E+1,8.27844E+1,1.21558E+0,8.27334E+1
5.56000E+1,9.00000E+1,9.05008E+1,-5.00755E-1,8.24675E+1
5.57400E+1,1.24000E+2,1.02260E+2,2.17399E+1,8.22030E+1
5.58800E+1,1.61000E+2,1.38240E+2,2.27601E+1,8.19399E+1
5.60200E+1,7.34000E+2,7.88425E+2,-5.44254E+1,8.16782E+1
5.61600E+1,4.18000E+2,4.68584E+2,-5.05841E+1,8.14178E+1
5.63000E+1,1.83000E+2,2.05106E+2,-2.21064E+1,8.11589E+1
5.64400E+1,1.20000E+2,1.06786E+2,1.32144E+1,8.09014E+1
5.65800E+1,1.38000E+2,1.21597E+2,1.64033E+1,8.06453E+1
5.67200E+1,9.90000E+1,1.02636E+2,-3.63556E+0,8.03907E+1
5.68600E+1,1.30000E+2,1.41544E+2,-1.15440E+1,8.01375E+1
5.70000E+1,1.19000E+2,1.19080E+2,-7.98340E-2,7.98858E+1
5.71400E+1,1.50000E+2,1.63837E+2,-1.38366E+1,7.96355E+1
5.72800E+1,3.91000E+2,3.68491E+2,2.25086E+1,7.93867E+1
5.74200E+1,3.10000E+2,2.99860E+2,1.01396E+1,7.91394E+1
5.75600E+1,8.20000E+1,9.38399E+1,-1.18399E+1,7.88936E+1
5.77000E+1,9.50000E+1,8.43102E+1,1.06898E+1,7.86493E+1
5.78400E+1,7.60000E+1,8.14220E+1,-5.42200E+0,7.84066E+1
5.79800E+1,8.90000E+1,8.27085E+1,6.29145E+0,7.81654E+1
5.81200E+1,8.40000E+1,1.01346E+2,-1.73457E+1,7.79257E+1
5.82600E+1,1.81000E+2,1.81776E+2,-7.75604E-1,7.76875E+1
5.84000E+1,1.23000E+2,1.44882E+2,-2.18823E+1,7.74510E+1
5.85400E+1,1.81000E+2,1.82237E+2,-1.23657E+0,7.72160E+1
5.86800E+1,1.27000E+2,1.28676E+2,-1.67581E+0,7.69826E+1
5.88200E+1,9.10000E+1,8.51557E+1,5.84426E+0,7.67509E+1
5.89600E+1,8.80000E+1,9.76291E+1,-9.62912E+0,7.65207E+1
5.91000E+1,1.32000E+2,1.41411E+2,-9.41113E+0,7.62921E+1
5.92400E+1,1.28000E+2,1.33356E+2,-5.35643E+0,7.60652E+1
5.93800E+1,8.10000E+1,7.95255E+1,1.47446E+0,7.58400E+1
5.95200E+1,7.90000E+1,7.69853E+1,2.01469E+0,7.56163E+1
5.96600E+1,8.20000E+1,7.57424E+1,6.25763E+0,7.53944E+1
5.98000E+1,7.50000E+1,8.07448E+1,-5.74479E+0,7.51741E+1
5.99400E+1,8.10000E+1,8.91085E+1,-8.10849E+0,7.49556E+1
6.00800E+1,1.17000E+2,1.17313E+2,-3.12988E-1,7.47387E+1
6.02200E+1,7.57000E+2,7.63516E+2,-6.51648E+0,7.45235E+1
6.03600E+1,3.01000E+2,3.19808E+2,-1.88083E+1,7.43101E+1
6.05000E+1,1.47000E+2,1.71644E+2,-2.46436E+1,7.40984E+1
6.06400E+1,2.77000E+2,2.87164E+2,-1.01644E+1,7.38884E+1
6.07800E+1,2.60000E+2,2.94316E+2,-3.43161E+1,7.36802E+1
6.09200E+1,2.69000E+2,2.86785E+2,-1.77854E+1,7.34737E+1
6.10600E+1,9.50000E+1,9.39794E+1,1.02055E+0,7.32690E+1
6.12000E+1,8.50000E+1,8.36421E+1,1.35793E+0,7.30661E+1
6.13400E+1,8.20000E+1,8.45593E+1,-2.55933E+0,7.28650E+1
6.14800E+1,1.07000E+2,9.63713E+1,1.06287E+1,7.26656E+1
6.16200E+1,2.38000E+2,2.10606E+2,2.73942E+1,7.24681E+1
6.17600E+1,3.16000E+2,3.10925E+2,5.07471E+0,7.22724E+1
6.19000E+1,7.73000E+2,8.03180E+2,-3.01802E+1,7.20785E+1
6.20400E+1,3.09000E+2,3.45725E+2,-3.67253E+1,7.18864E+1
6.21800E+1,9.10000E+1,1.00093E+2,-9.09282E+0,7.16962E+1
6.23200E+1,7.70000E+1,7.97103E+1,-2.71034E+0,7.15078E+1
6.24600E+1,7.60000E+1,7.29606E+1,3.03942E+0,7.13212E+1
6.26000E+1,7.90000E+1,7.20433E+1,6.95670E+0,7.11366E+1
6.27400E+1,9.10000E+1,8.09002E+1,1.00998E+1,7.09537E+1
6.28800E+1,9.60000E+1,9.40476E+1,1.95238E+0,7.07728E+1
6.30200E+1,1.51000E+2,1.27462E+2,2.35379E+1,7.05937E+1
6.31600E+1,3.93000E+2,4.20313E+2,-2.73128E+1,7.04165E+1
6.33000E+1,8.23000E+2,7.95646E+2,2.73542E+1,7.02412E+1
6.34400E+1,1.07100E+3,9.69309E+2,1.01691E+2,7.00677E+1
6.35800E+1,1.89000E+2,1.47903E+2,4.10971E+1,6.98962E+1
6.37200E+1,3.07000E+2,2.86665E+2,2.03349E+1,6.97266E+1
6.38600E+1,2.09000E+2,2.18705E+2,-9.70477E+0,6.95589E+1
6.40000E+1,1.48700E+3,1.56007E+3,-7.30692E+1,6.93931E+1
6.41400E+1,4.91000E+2,5.01550E+2,-1.05505E+1,6.92292E+1
6.42800E+1,6.29000E+2,7.10058E+2,-8.10578E+1,6.90672E+1
6.44200E+1,3.12000E+2,3.40133E+2,-2.81330E+1,6.89071E+1
6.45600E+1,3.88000E+2,3.61525E+2,2.64752E+1,6.87490E+1
6.47000E+1,1.09000E+2,9.89119E+1,1.00881E+1,6.85928E+1
6.48400E+1,8.50000E+1,8.55622E+1,-5.62164E-1,6.84385E+1
6.49800E+1,1.07000E+2,8.67840E+1,2.02160E+1,6.82861E+1
6.51200E+1,1.30000E+2,1.06003E+2,2.39967E+1,6.81356E+1
6.52600E+1,2.91000E+2,2.95786E+2,-4.78607E+0,6.79871E+1
6.54000E+1,5.03000E+2,5.04700E+2,-1.69962E+0,6.78405E+1
6.55400E+1,8.61000E+2,9.49094E+2,-8.80936E+1,6.76959E+1
6.56800E+1,2.12000E+2,2.06620E+2,5.38036E+0,6.75532E+1
6.58200E+1,1.03000E+2,9.72923E+1,5.70770E+0,6.74124E+1
6.59600E+1,7.60000E+1,7.49177E+1,1.08227E+0,6.72735E+1
6.61000E+1,7.10000E+1,7.15782E+1,-5.78239E-1,6.71366E+1
6.62400E+1,6.60000E+1,7.27377E+1,-6.73768E+0,6.70015E+1
6.63800E+1,9.60000E+1,7.97906E+1,1.62094E+1,6.68684E+1
6.65200E+1,1.41000E+2,1.39728E+2,1.27209E+0,6.67373E+1
6.66600E+1,3.52000E+2,3.59838E+2,-7.83777E+0,6.66080E+1
6.68000E+1,3.03000E+2,2.73545E+2,2.94550E+1,6.64807E+1
6.69400E+1,8.40000E+1,8.95104E+1,-5.51038E+0,6.63552E+1
6.70800E+1,5.60000E+1,7.25488E+1,-1.65488E+1,6.62317E+1
6.72200E+1,6.70000E+1,6.83723E+1,-1.37225E+0,6.61101E+1
6.73600E+1,5.60000E+1,6.73171E+1,-1.13171E+1,6.59904E+1
6.75000E+1,8.00000E+1,6.60842E+1,1.39158E+1,6.58725E+1
6.76400E+1,7.50000E+1,6.61021E+1,8.89793E+0,6.57566E+1
6.77800E+1,7.20000E+1,6.56698E+1,6.33025E+0,6.56426E+1
6.79200E+1,6.50000E+1,6.59095E+1,-9.09508E-1,6.55304E+1
6.80600E+1,5.60000E+1,6.60437E+1,-1.00437E+1,6.54201E+1
6.82000E+1,5.80000E+1,6.68156E+1,-8.81561E+0,6.53117E+1
6.83400E+1,6.10000E+1,6.93803E+1,-8.38029E+0,6.52051E+1
6.84800E+1,8.70000E+1,1.13656E+2,-2.66559E+1,6.51004E+1
6.86200E+1,8.30000E+1,8.29488E+1,5.11627E-2,6.49975E+1
6.87600E+1,8.30000E+1,9.47300E+1,-1.17300E+1,6.48964E+1
6.89000E+1,7.30000E+1,6.81591E+1,4.84085E+0,6.47972E+1
6.90400E+1,6.40000E+1,7.24468E+1,-8.44681E+0,6.46998E+1
6.91800E+1,6.20000E+1,6.94683E+1,-7.46832E+0,6.46043E+1
6.93200E+1,8.70000E+1,9.24980E+1,-5.49802E+0,6.45105E+1
6.94600E+1,6.70000E+1,8.22209E+1,-1.52209E+1,6.44185E+1
6.96000E+1,8.70000E+1,1.00011E+2,-1.30113E+1,6.43283E+1
6.97400E+1,8.20000E+1,7.73838E+1,4.61624E+0,6.42399E+1
6.98800E+1,9.50000E+1,1.12532E+2,-1.75320E+1,6.41532E+1
7.00200E+1,3.75000E+2,4.08201E+2,-3.32014E+1,6.40683E+1
7.01600E+1,2.53000E+2,2.32795E+2,2.02048E+1,6.39851E+1
7.03000E+1,9.80000E+1,9.24960E+1,5.50403E+0,6.39036E+1
7.04400E+1,1.08000E+2,1.06937E+2,1.06342E+0,6.38239E+1
7.05800E+1,8.60000E+1,7.73525E+1,8.64748E+0,6.37459E+1
7.07200E+1,8.20000E+1,8.35970E+1,-1.59696E+0,6.36695E+1
7.08600E+1,6.30000E+1,7.08730E+1,-7.87296E+0,6.35949E+1
7.10000E+1,1.04000E+2,1.08252E+2,-4.25157E+0,6.35219E+1
7.11400E+1,6.40000E+1,7.85360E+1,-1.45360E+1,6.34506E+1
7.12800E+1,1.39000E+2,1.38261E+2,7.38770E-1,6.33809E+1
7.14200E+1,8.10000E+1,8.14806E+1,-4.80591E-1,6.33128E+1
7.15600E+1,6.60000E+1,7.85374E+1,-1.25374E+1,6.32464E+1
7.17000E+1,1.07000E+2,8.97226E+1,1.72774E+1,6.31815E+1
7.18400E+1,1.86000E+2,2.00141E+2,-1.41411E+1,6.31182E+1
7.19800E+1,8.76000E+2,8.54992E+2,2.10082E+1,6.30565E+1
7.21200E+1,1.76000E+2,2.05681E+2,-2.96808E+1,6.29964E+1
7.22600E+1,2.16000E+2,2.11413E+2,4.58705E+0,6.29378E+1
7.24000E+1,1.19000E+2,1.19499E+2,-4.98840E-1,6.28807E+1
7.25400E+1,1.42000E+2,1.48655E+2,-6.65498E+0,6.28251E+1
7.26800E+1,4.96000E+2,5.43660E+2,-4.76605E+1,6.27710E+1
7.28200E+1,2.91000E+2,2.44772E+2,4.62281E+1,6.27184E+1
7.29600E+1,1.18000E+2,1.08827E+2,9.17253E+0,6.26673E+1
7.31000E+1,9.60000E+1,8.24334E+1,1.35666E+1,6.26176E+1
7.32400E+1,1.32000E+2,1.03913E+2,2.80870E+1,6.25693E+1
7.33800E+1,8.50000E+1,9.04694E+1,-5.46944E+0,6.25224E+1
7.35200E+1,6.40000E+1,6.63006E+1,-2.30061E+0,6.24769E+1
7.36600E+1,6.10000E+1,6.90070E+1,-8.00702E+0,6.24328E+1
7.38000E+1,7.10000E+1,7.36784E+1,-2.67842E+0,6.23901E+1
7.39400E+1,1.01000E+2,8.97109E+1,1.12891E+1,6.23487E+1
7.40800E+1,2.31000E+2,2.13187E+2,1.78132E+1,6.23086E+1
7.42200E+1,4.81000E+2,4.97974E+2,-1.69743E+1,6.22698E+1
7.43600E+1,3.96000E+2,4.32427E+2,-3.64272E+1,6.22323E+1
7.45000E+1,4.47000E+2,4.51535E+2,-4.53464E+0,6.21960E+1
7.46400E+1,9.30000E+1,9.47561E+1,-1.75608E+0,6.21610E+1
7.47800E+1,9.10000E+1,7.71174E+1,1.38826E+1,6.21273E+1
7.49200E+1,8.10000E+1,8.17230E+1,-7.22961E-1,6.20947E+1
7.50600E+1,2.47000E+2,2.40010E+2,6.99043E+0,6.20633E+1
7.52000E+1,1.39000E+2,1.13176E+2,2.58241E+1,6.20331E+1
7.53400E+1,1.98000E+2,1.71409E+2,2.65911E+1,6.20041E+1
7.54800E+1,2.22000E+2,2.18819E+2,3.18098E+0,6.19762E+1
7.56200E+1,8.01000E+2,7.55200E+2,4.57997E+1,6.19494E+1
7.57600E+1,3.51000E+2,3.25615E+2,2.53850E+1,6.19237E+1
7.59000E+1,1.90000E+2,1.38824E+2,5.11756E+1,6.18990E+1
7.60400E+1,8.70000E+1,8.17374E+1,5.26257E+0,6.18754E+1
7.61800E+1,7.20000E+1,7.84998E+1,-6.49983E+0,6.18529E+1
7.63200E+1,1.05000E+2,9.62816E+1,8.71838E+0,6.18313E+1
7.64600E+1,4.40000E+2,4.93227E+2,-5.32272E+1,6.18108E+1
7.66000E+1,1.35000E+2,1.36310E+2,-1.30997E+0,6.17912E+1
7.67400E+1,1.96000E+2,1.80382E+2,1.56180E+1,6.17726E+1
7.68800E+1,3.20000E+2,2.59806E+2,6.01939E+1,6.17549E+1
7.70200E+1,2.38000E+2,2.24533E+2,1.34670E+1,6.17381E+1
7.71600E+1,1.45000E+3,1.46575E+3,-1.57520E+1,6.17223E+1
7.73000E+1,2.74000E+2,2.92477E+2,-1.84766E+1,6.17072E+1
7.74400E+1,9.87000E+2,9.81943E+2,5.05658E+0,6.16931E+1
7.75800E+1,1.99000E+2,1.91643E+2,7.35727E+0,6.16798E+1
7.77200E+1,3.31000E+2,3.63441E+2,-3.24409E+1,6.16672E+1
7.78600E+1,1.17000E+2,9.04774E+1,2.65226E+1,6.16555E+1
7.80000E+1,8.50000E+1,8.30897E+1,1.91032E+0,6.16446E+1
7.81400E+1,9.60000E+1,7.83837E+1,1.76163E+1,6.16343E+1
7.82800E+1,9.70000E+1,1.05373E+2,-8.37342E+0,6.16249E+1
7.84200E+1,2.84000E+2,2.99228E+2,-1.52278E+1,6.16161E+1
7.85600E+1,1.18900E+3,1.12026E+3,6.87394E+1,6.16080E+1
7.87000E+1,2.19000E+2,2.44947E+2,-2.59468E+1,6.16006E+1
7.88400E+1,4.54000E+2,4.95593E+2,-4.15932E+1,6.15938E+1
7.89800E+1,9.70000E+1,9.69811E+1,1.89056E-2,6.15877E+1
7.91200E+1,8.10000E+1,7.48252E+1,6.17484E+0,6.15822E+1
7.92600E+1,6.70000E+1,6.52496E+1,1.75043E+0,6.15772E+1
7.94000E+1,7.20000E+1,6.37152E+1,8.28478E+0,6.15729E+1
7.95400E+1,6.40000E+1,6.15690E+1,2.43098E+0,6.15690E+1
7.96800E+1,6.50000E+1,6.15657E+1,3.43427E+0,6.15657E+1
7.98200E+1,6.60000E+1,6.15629E+1,4.43707E+0,6.15629E+1
7.99600E+1,5.60000E+1,6.15606E+1,-5.56063E+0,6.15606E+1
8.01000E+1,6.70000E+1,6.15588E+1,5.44120E+0,6.15588E+1
8.02400E+1,5.90000E+1,6.19726E+1,-2.97255E+0,6.15574E+1
8.03800E+1,6.90000E+1,6.22472E+1,6.75283E+0,6.15565E+1
8.05200E+1,5.50000E+1,6.31562E+1,-8.15618E+0,6.15559E+1
8.06600E+1,7.90000E+1,6.57895E+1,1.32105E+1,6.15558E+1
8.08000E+1,9.20000E+1,1.00016E+2,-8.01640E+0,6.15560E+1
8.09400E+1,7.70000E+1,8.46871E+1,-7.68710E+0,6.15566E+1
8.10800E+1,1.19000E+2,1.07930E+2,1.10699E+1,6.15575E+1
8.12200E+1,6.40000E+1,7.79183E+1,-1.39183E+1,6.15587E+1
8.13600E+1,2.41000E+2,2.13229E+2,2.77711E+1,6.15602E+1
8.15000E+1,8.80000E+1,8.52857E+1,2.71433E+0,6.15620E+1
8.16400E+1,1.79000E+2,1.43675E+2,3.53255E+1,6.15641E+1
8.17800E+1,9.10000E+1,8.37210E+1,7.27895E+0,6.15664E+1
8.19200E+1,1.89000E+2,1.77880E+2,1.11204E+1,6.15690E+1
8.20600E+1,1.31000E+2,1.15624E+2,1.53762E+1,6.15717E+1
8.22000E+1,3.92000E+2,4.01938E+2,-9.93774E+0,6.15747E+1
8.23400E+1,1.20000E+2,1.14954E+2,5.04610E+0,6.15778E+1
8.24800E+1,1.49000E+2,1.51894E+2,-2.89447E+0,6.15811E+1
8.26200E+1,9.20000E+1,8.34379E+1,8.56208E+0,6.15845E+1
8.27600E+1,2.15000E+2,2.11854E+2,3.14571E+0,6.15880E+1
8.29000E+1,7.60000E+1,8.43359E+1,-8.33585E+0,6.15917E+1
8.30400E+1,1.35000E+2,1.29234E+2,5.76559E+0,6.15954E+1
8.31800E+1,1.78000E+2,1.53632E+2,2.43677E+1,6.15992E+1
8.33200E+1,1.16000E+2,1.09225E+2,6.77484E+0,6.16031E+1
8.34600E+1,3.49000E+2,3.05482E+2,4.35180E+1,6.16070E+1
8.36000E+1,2.90000E+2,2.68452E+2,2.15482E+1,6.16110E+1
8.37400E+1,8.33000E+2,8.17816E+2,1.51837E+1,6.16150E+1
8.38800E+1,2.05000E+2,2.42281E+2,-3.72807E+1,6.16189E+1
8.40200E+1,3.87000E+2,3.89125E+2,-2.12521E+0,6.16229E+1
8.41600E+1,1.51000E+2,1.36758E+2,1.42419E+1,6.16268E+1
8.43000E+1,3.44000E+2,3.52199E+2,-8.19925E+0,6.16307E+1
8.44400E+1,3.42000E+2,3.58792E+2,-1.67921E+1,6.16345E+1
8.45800E+1,2.94000E+2,2.91571E+2,2.42865E+0,6.16383E+1
8.47200E+1,3.14000E+2,2.91425E+2,2.25746E+1,6.16420E+1
8.48600E+1,1.22000E+2,1.17390E+2,4.60994E+0,6.16456E+1
8.50000E+1,1.01000E+2,9.20216E+1,8.97840E+0,6.16491E+1
8.51400E+1,9.00000E+1,7.66917E+1,1.33083E+1,6.16524E+1
8.52800E+1,1.56000E+2,1.38242E+2,1.77581E+1,6.16556E+1
8.54200E+1,8.40000E+1,7.99940E+1,4.00600E+0,6.16587E+1
8.55600E+1,1.19000E+2,1.14117E+2,4.88321E+0,6.16616E+1
8.57000E+1,1.11000E+2,1.02956E+2,8.04362E+0,6.16644E+1
8.58400E+1,3.09000E+2,3.24990E+2,-1.59896E+1,6.16670E+1
8.59800E+1,1.21000E+2,1.01268E+2,1.97320E+1,6.16694E+1
8.61200E+1,1.45000E+2,1.66712E+2,-2.17117E+1,6.16716E+1
8.62600E+1,8.40000E+1,8.21814E+1,1.81864E+0,6.16736E+1
8.64000E+1,7.70000E+1,7.74040E+1,-4.04037E-1,6.16753E+1
8.65400E+1,7.00000E+1,7.12125E+1,-1.21249E+0,6.16769E+1
8.66800E+1,7.10000E+1,6.69726E+1,4.02737E+0,6.16782E+1
8.68200E+1,8.50000E+1,6.60651E+1,1.89349E+1,6.16793E+1
8.69600E+1,7.00000E+1,7.10771E+1,-1.07713E+0,6.16801E+1
8.71000E+1,9.30000E+1,8.01756E+1,1.28244E+1,6.16806E+1
8.72400E+1,1.24000E+2,1.22091E+2,1.90936E+0,6.16809E+1
8.73800E+1,7.53000E+2,6.92354E+2,6.06463E+1,6.16809E+1
8.75200E+1,2.41000E+2,2.22464E+2,1.85365E+1,6.16807E+1
8.76600E+1,4.76000E+2,5.22622E+2,-4.66219E+1,6.16801E+1
8.78000E+1,1.88000E+2,1.77972E+2,1.00277E+1,6.16792E+1
8.79400E+1,2.31000E+2,2.27089E+2,3.91112E+0,6.16781E+1
8.80800E+1,3.93000E+2,3.56589E+2,3.64109E+1,6.16766E+1
8.82200E+1,2.09000E+2,1.83913E+2,2.50872E+1,6.16748E+1
8.83600E+1,2.27000E+2,2.44666E+2,-1.76659E+1,6.16727E+1
8.85000E+1,1.30000E+2,1.19939E+2,1.00611E+1,6.16703E+1
8.86400E+1,1.06000E+2,1.05652E+2,3.47580E-1,6.16675E+1
8.87800E+1,1.36000E+2,1.34553E+2,1.44673E+0,6.16645E+1
8.89200E+1,6.64000E+2,6.35342E+2,2.86584E+1,6.16610E+1
8.90600E+1,3.30000E+2,3.43711E+2,-1.37112E+1,6.16573E+1
8.92000E+1,3.79000E+2,3.75063E+2,3.93738E+0,6.16532E+1
8.93400E+1,1.85000E+2,2.04832E+2,-1.98316E+1,6.16487E+1
8.94800E+1,1.12000E+2,8.92606E+1,2.27394E+1,6.16439E+1
8.96200E+1,7.90000E+1,7.54845E+1,3.51552E+0,6.16388E+1
8.97600E+1,5.80000E+1,6.97366E+1,-1.17366E+1,6.16333E+1
8.99000E+1,9.20000E+1,1.00409E+2,-8.40880E+0,6.16275E+1
9.00400E+1,9.30000E+1,7.95112E+1,1.34888E+1,6.16213E+1
9.01800E+1,8.30000E+1,1.05907E+2,-2.29074E+1,6.16147E+1
9.03200E+1,7.20000E+1,7.36551E+1,-1.65513E+0,6.16078E+1
9.04600E+1,7.70000E+1,7.62336E+1,7.66418E-1,6.16005E+1
9.06000E+1,7.20000E+1,6.38502E+1,8.14980E+0,6.15929E+1
9.07400E+1,5.50000E+1,6.22711E+1,-7.27108E+0,6.15849E+1
9.08800E+1,4.80000E+1,6.39197E+1,-1.59197E+1,6.15766E+1
9.10200E+1,5.80000E+1,6.50794E+1,-7.07944E+0,6.15679E+1
9.11600E+1,5.00000E+1,6.93467E+1,-1.93467E+1,6.15589E+1
9.13000E+1,8.00000E+1,8.21740E+1,-2.17400E+0,6.15495E+1
9.14400E+1,2.00000E+2,2.35114E+2,-3.51140E+1,6.15398E+1
9.15800E+1,1.66000E+2,1.61924E+2,4.07634E+0,6.15297E+1
9.17200E+1,1.52000E+2,1.41381E+2,1.06191E+1,6.15193E+1
9.18600E+1,1.40000E+2,1.38121E+2,1.87926E+0,6.15086E+1
9.20000E+1,1.27000E+2,1.38070E+2,-1.10698E+1,6.14975E+1
9.21400E+1,1.26000E+2,1.36193E+2,-1.01925E+1,6.14860E+1
9.22800E+1,7.90000E+1,9.45581E+1,-1.55581E+1,6.14743E+1
9.24200E+1,1.05000E+2,1.15744E+2,-1.07439E+1,6.14622E+1
9.25600E+1,6.70000E+1,7.29543E+1,-5.95432E+0,6.14498E+1
9.27000E+1,1.02000E+2,1.03856E+2,-1.85576E+0,6.14371E+1
9.28400E+1,9.30000E+1,9.67562E+1,-3.75624E+0,6.14241E+1
9.29800E+1,8.60000E+1,8.60446E+1,-4.46243E-2,6.14108E+1
9.31200E+1,8.50000E+1,8.84534E+1,-3.45341E+0,6.13972E+1
9.32600E+1,7.40000E+1,7.11076E+1,2.89240E+0,6.13833E+1
9.34000E+1,5.10000E+1,6.51757E+1,-1.41757E+1,6.13691E+1
9.35400E+1,6.50000E+1,7.34855E+1,-8.48546E+0,6.13546E+1
9.36800E+1,6.60000E+1,7.43582E+1,-8.35818E+0,6.13398E+1
9.38200E+1,1.24000E+2,1.28999E+2,-4.99896E+0,6.13248E+1
9.39600E+1,6.50000E+1,7.25605E+1,-7.56050E+0,6.13095E+1
9.41000E+1,1.23000E+2,1.01922E+2,2.10781E+1,6.12940E+1
9.42400E+1,8.90000E+1,8.54370E+1,3.56300E+0,6.12782E+1
9.43800E+1,1.02000E+2,9.31059E+1,8.89409E+0,6.12622E+1
9.45200E+1,7.30000E+1,7.04143E+1,2.58569E+0,6.12460E+1
9.46600E+1,1.09000E+2,8.88800E+1,2.01200E+1,6.12295E+1
9.48000E+1,5.50000E+1,6.39898E+1,-8.98980E+0,6.12129E+1
9.49400E+1,6.40000E+1,6.22615E+1,1.73848E+0,6.11960E+1
9.50800E+1,5.50000E+1,6.17465E+1,-6.74648E+0,6.11790E+1
9.52200E+1,4.90000E+1,6.24459E+1,-1.34459E+1,6.11617E+1
9.53600E+1,6.50000E+1,6.29649E+1,2.03514E+0,6.11443E+1
9.55000E+1,5.80000E+1,6.58869E+1,-7.88695E+0,6.11267E+1
9.56400E+1,7.60000E+1,7.94453E+1,-3.44534E+0,6.11090E+1
9.57800E+1,1.10000E+2,1.04465E+2,5.53517E+0,6.10911E+1
9.59200E+1,1.46000E+2,1.64568E+2,-1.85681E+1,6.10731E+1
9.60600E+1,1.14000E+2,1.04898E+2,9.10221E+0,6.10550E+1
9.62000E+1,1.77000E+2,2.12818E+2,-3.58177E+1,6.10368E+1
9.63400E+1,1.90000E+2,1.89908E+2,9.15222E-2,6.10184E+1
9.64800E+1,1.85000E+2,1.80618E+2,4.38177E+0,6.10000E+1
9.66200E+1,2.49000E+2,2.37675E+2,1.13247E+1,6.09815E+1
9.67600E+1,2.59000E+2,2.54131E+2,4.86916E+0,6.09629E+1
9.69000E+1,1.47000E+2,1.32681E+2,1.43186E+1,6.09443E+1
9.70400E+1,4.04000E+2,3.45942E+2,5.80583E+1,6.09256E+1
9.71800E+1,2.13000E+2,2.06241E+2,6.75883E+0,6.09069E+1
9.73200E+1,2.11000E+2,2.15668E+2,-4.66751E+0,6.08882E+1
9.74600E+1,2.22000E+2,2.27065E+2,-5.06453E+0,6.08694E+1
9.76000E+1,2.58000E+2,2.42743E+2,1.52570E+1,6.08507E+1
9.77400E+1,4.68000E+2,5.07081E+2,-3.90806E+1,6.08319E+1
9.78800E+1,1.27000E+2,1.18097E+2,8.90337E+0,6.08132E+1
9.80200E+1,1.90000E+2,2.16074E+2,-2.60743E+1,6.07946E+1
9.81600E+1,1.07000E+2,1.00982E+2,6.01778E+0,6.07760E+1
9.83000E+1,7.10000E+1,7.22822E+1,-1.28220E+0,6.07574E+1
9.84400E+1,7.50000E+1,7.08859E+1,4.11414E+0,6.07389E+1
9.85800E+1,8.50000E+1,7.66325E+1,8.36751E+0,6.07205E+1
9.87200E+1,1.95000E+2,1.76473E+2,1.85267E+1,6.07023E+1
9.88600E+1,1.14000E+2,1.01935E+2,1.20649E+1,6.06841E+1
9.90000E+1,1.09000E+2,1.16211E+2,-7.21133E+0,6.06660E+1
9.91400E+1,4.38000E+2,3.97922E+2,4.00776E+1,6.06481E+1
9.92800E+1,1.95000E+2,1.81681E+2,1.33185E+1,6.06304E+1
9.94200E+1,1.29000E+2,1.34499E+2,-5.49940E+0,6.06128E+1
9.95600E+1,1.87000E+2,1.57736E+2,2.92636E+1,6.05953E+1
9.97000E+1,1.01000E+2,9.04373E+1,1.05627E+1,6.05781E+1
9.98400E+1,9.70000E+1,9.34249E+1,3.57510E+0,6.05611E+1
9.99800E+1,2.55000E+2,2.49027E+2,5.97307E+0,6.05443E+1
1.00120E+2,1.82000E+2,2.01071E+2,-1.90710E+1,6.05277E+1
1.00260E+2,1.27000E+2,1.20751E+2,6.24852E+0,6.05113E+1
1.00400E+2,2.80000E+2,2.88782E+2,-8.78214E+0,6.04952E+1
1.00540E+2,3.66000E+2,3.37805E+2,2.81950E+1,6.04794E+1
1.00680E+2,1.36000E+2,1.43357E+2,-7.35666E+0,6.04638E+1
1.00820E+2,2.79000E+2,2.44401E+2,3.45986E+1,6.04485E+1
1.00960E+2,2.21000E+2,2.19439E+2,1.56116E+0,6.04335E+1
1.01100E+2,9.70000E+1,1.04601E+2,-7.60089E+0,6.04189E+1
1.01240E+2,1.60000E+2,1.71118E+2,-1.11177E+1,6.04045E+1
1.01380E+2,1.45000E+2,1.48807E+2,-3.80652E+0,6.03905E+1
1.01520E+2,1.02000E+2,1.15486E+2,-1.34858E+1,6.03768E+1
1.01660E+2,8.10000E+1,8.47316E+1,-3.73163E+0,6.03635E+1
1.01800E+2,1.21000E+2,1.62537E+2,-4.15367E+1,6.03506E+1
1.01940E+2,1.75000E+2,1.54278E+2,2.07224E+1,6.03381E+1
1.02080E+2,7.40000E+1,7.50989E+1,-1.09885E+0,6.03259E+1
1.02220E+2,1.12000E+2,1.02673E+2,9.32719E+0,6.03141E+1
1.02360E+2,6.90000E+1,7.30751E+1,-4.07515E+0,6.03028E+1
1.02500E+2,6.00000E+1,6.34377E+1,-3.43768E+0,6.02919E+1
1.02640E+2,5.80000E+1,6.20298E+1,-4.02980E+0,6.02814E+1
1.02780E+2,5.50000E+1,6.35328E+1,-8.53281E+0,6.02713E+1
1.02920E+2,6.20000E+1,6.48401E+1,-2.84013E+0,6.02618E+1
1.03060E+2,7.30000E+1,6.79606E+1,5.03940E+0,6.02526E+1
1.03200E+2,7.70000E+1,7.86174E+1,-1.61745E+0,6.02440E+1
1.03340E+2,1.59000E+2,1.50162E+2,8.83841E+0,6.02358E+1
1.03480E+2,2.26000E+2,2.55018E+2,-2.90181E+1,6.02282E+1
1.03620E+2,2.55000E+2,2.75533E+2,-2.05329E+1,6.02210E+1
1.03760E+2,1.61000E+2,1.49862E+2,1.11382E+1,6.02144E+1
1.03900E+2,2.89000E+2,3.05297E+2,-1.62969E+1,6.02083E+1
1.04040E+2,1.93000E+2,1.99055E+2,-6.05475E+0,6.02027E+1
1.04180E+2,1.06000E+2,9.50076E+1,1.09924E+1,6.01976E+1
1.04320E+2,1.12000E+2,1.04361E+2,7.63883E+0,6.01931E+1
1.04460E+2,1.89000E+2,1.59178E+2,2.98223E+1,6.01891E+1
1.04600E+2,6.60000E+2,6.58984E+2,1.01569E+0,6.01857E+1
1.04740E+2,1.71000E+2,1.74038E+2,-3.03767E+0,6.01829E+1
1.04880E+2,1.45000E+2,1.59758E+2,-1.47575E+1,6.01806E+1
1.05020E+2,3.35000E+2,3.37160E+2,-2.16022E+0,6.01789E+1
1.05160E+2,1.24000E+2,1.35450E+2,-1.14497E+1,6.01778E+1
1.05300E+2,4.14000E+2,4.51020E+2,-3.70202E+1,6.01773E+1
1.05440E+2,1.85000E+2,1.78870E+2,6.13010E+0,6.01774E+1
1.05580E+2,1.33000E+2,1.21085E+2,1.19152E+1,6.01781E+1
1.05720E+2,3.10000E+2,3.25719E+2,-1.57189E+1,6.01794E+1
1.05860E+2,1.13000E+2,9.45585E+1,1.84415E+1,6.01813E+1
1.06000E+2,8.10000E+1,7.70887E+1,3.91129E+0,6.01838E+1
1.06140E+2,1.17000E+2,9.86761E+1,1.83239E+1,6.01870E+1
1.06280E+2,7.70000E+1,9.74673E+1,-2.04673E+1,6.01907E+1
1.06420E+2,2.31000E+2,2.19337E+2,1.16632E+1,6.01951E+1
1.06560E+2,8.70000E+1,1.04174E+2,-1.71738E+1,6.02002E+1
1.06700E+2,9.60000E+1,9.80691E+1,-2.06914E+0,6.02058E+1
1.06840E+2,1.68000E+2,1.50202E+2,1.77977E+1,6.02121E+1
1.06980E+2,2.22000E+2,2.34453E+2,-1.24533E+1,6.02190E+1
1.07120E+2,9.60000E+1,8.53789E+1,1.06211E+1,6.02266E+1
1.07260E+2,9.90000E+1,1.01989E+2,-2.98897E+0,6.02348E+1
1.07400E+2,1.14000E+2,1.11476E+2,2.52415E+0,6.02436E+1
1.07540E+2,8.70000E+1,6.86149E+1,1.83851E+1,6.02531E+1
1.07680E+2,6.60000E+1,6.53026E+1,6.97357E-1,6.02632E+1
1.07820E+2,6.60000E+1,7.27042E+1,-6.70422E+0,6.02740E+1
1.07960E+2,4.40000E+1,6.39040E+1,-1.99040E+1,6.02854E+1
1.08100E+2,6.90000E+1,6.35706E+1,5.42936E+0,6.02974E+1
1.08240E+2,7.60000E+1,7.23410E+1,3.65901E+0,6.03101E+1
1.08380E+2,7.70000E+1,7.15450E+1,5.45496E+0,6.03234E+1
1.08520E+2,7.00000E+1,6.61417E+1,3.85827E+0,6.03373E+1
1.08660E+2,7.50000E+1,7.36465E+1,1.35350E+0,6.03519E+1
1.08800E+2,1.11000E+2,1.09963E+2,1.03654E+0,6.03671E+1
1.08940E+2,1.38000E+2,1.24377E+2,1.36229E+1,6.03829E+1
1.09080E+2,1.42000E+2,1.63549E+2,-2.15490E+1,6.03993E+1
1.09220E+2,1.15000E+2,1.32508E+2,-1.75078E+1,6.04164E+1
1.09360E+2,1.11000E+2,9.64491E+1,1.45509E+1,6.04340E+1
1.09500E+2,1.29000E+2,1.36315E+2,-7.31514E+0,6.04523E+1
1.09640E+2,1.88000E+2,1.68511E+2,1.94894E+1,6.04711E+1
1.09780E+2,1.03000E+2,1.00784E+2,2.21555E+0,6.04906E+1
1.09920E+2,8.30000E+1,8.65733E+1,-3.57330E+0,6.05107E+1
1.10060E+2,1.21000E+2,1.25451E+2,-4.45074E+0,6.05313E+1
1.10200E+2,1.05000E+2,9.54949E+1,9.50505E+0,6.05525E+1
1.10340E+2,1.17000E+2,1.13537E+2,3.46267E+0,6.05743E+1
1.10480E+2,3.25000E+2,3.35745E+2,-1.07450E+1,6.05966E+1
1.10620E+2,5.24000E+2,4.98729E+2,2.52708E+1,6.06195E+1
1.10760E+2,1.48000E+2,1.40146E+2,7.85419E+0,6.06430E+1
1.10900E+2,2.23000E+2,2.35212E+2,-1.22117E+1,6.06670E+1
1.11040E+2,3.73000E+2,3.22762E+2,5.02382E+1,6.06915E+1
1.11180E+2,1.08000E+2,1.08959E+2,-9.58923E-1,6.07165E+1
1.11320E+2,8.80000E+1,8.20115E+1,5.98853E+0,6.07421E+1
1.11460E+2,1.17000E+2,1.01410E+2,1.55901E+1,6.07682E+1
1.11600E+2,1.33000E+2,1.17902E+2,1.50981E+1,6.07947E+1
1.11740E+2,8.40000E+1,7.76325E+1,6.36746E+0,6.08218E+1
1.11880E+2,6.50000E+1,7.34506E+1,-8.45059E+0,6.08493E+1
1.12020E+2,1.47000E+2,1.26600E+2,2.04002E+1,6.08773E+1
1.12160E+2,9.00000E+1,9.25084E+1,-2.50836E+0,6.09057E+1
1.12300E+2,7.40000E+1,7.32885E+1,7.11533E-1,6.09346E+1
1.12440E+2,7.40000E+1,8.81385E+1,-1.41385E+1,6.09639E+1
1.12580E+2,9.40000E+1,8.89234E+1,5.07660E+0,6.09937E+1
1.12720E+2,1.90000E+2,1.63580E+2,2.64200E+1,6.10239E+1
1.12860E+2,9.60000E+1,1.05028E+2,-9.02800E+0,6.10544E+1
1.13000E+2,8.50000E+1,8.90865E+1,-4.08646E+0,6.10854E+1
1.13140E+2,2.52000E+2,2.07335E+2,4.46649E+1,6.11167E+1
1.13280E+2,1.22000E+2,1.22096E+2,-9.63058E-2,6.11484E+1
1.13420E+2,9.70000E+1,9.06376E+1,6.36240E+0,6.11805E+1
1.13560E+2,1.65000E+2,1.81765E+2,-1.67648E+1,6.12129E+1
1.13700E+2,1.00000E+2,1.03216E+2,-3.21584E+0,6.12457E+1
1.13840E+2,1.17000E+2,1.15840E+2,1.15955E+0,6.12787E+1
1.13980E+2,1.10000E+2,1.16468E+2,-6.46764E+0,6.13121E+1
1.14120E+2,7.70000E+1,8.19135E+1,-4.91347E+0,6.13458E+1
1.14260E+2,1.00000E+2,9.59289E+1,4.07106E+0,6.13797E+1
1.14400E+2,1.33000E+2,1.49759E+2,-1.67589E+1,6.14139E+1
1.14540E+2,2.32000E+2,2.27461E+2,4.53867E+0,6.14484E+1
1.14680E+2,9.90000E+1,9.82637E+1,7.36320E-1,6.14832E+1
1.14820E+2,1.02000E+2,1.16279E+2,-1.42791E+1,6.15182E+1
1.14960E+2,2.69000E+2,2.73769E+2,-4.76932E+0,6.15534E+1
1.15100E+2,1.75000E+2,1.75743E+2,-7.43225E-1,6.15888E+1
1.15240E+2,5.34000E+2,5.32404E+2,1.59564E+0,6.16245E+1
1.15380E+2,1.78000E+2,2.03674E+2,-2.56739E+1,6.16603E+1
1.15520E+2,1.76000E+2,1.60070E+2,1.59296E+1,6.16964E+1
1.15660E+2,2.54000E+2,2.47774E+2,6.22615E+0,6.17326E+1
1.15800E+2,1.53000E+2,1.58436E+2,-5.43596E+0,6.17690E+1
1.15940E+2,1.06000E+2,9.20773E+1,1.39227E+1,6.18055E+1
1.16080E+2,9.20000E+1,9.01917E+1,1.80829E+0,6.18422E+1
1.16220E+2,1.08000E+2,9.27697E+1,1.52303E+1,6.18791E+1
1.16360E+2,6.80000E+1,8.23094E+1,-1.43094E+1,6.19160E+1
1.16500E+2,1.04000E+2,1.21446E+2,-1.74463E+1,6.19531E+1
1.16640E+2,1.89000E+2,1.87302E+2,1.69800E+0,6.19904E+1
1.16780E+2,1.83000E+2,1.99815E+2,-1.68152E+1,6.20277E+1
1.16920E+2,1.18000E+2,1.07140E+2,1.08599E+1,6.20652E+1
1.17060E+2,1.76000E+2,1.56159E+2,1.98408E+1,6.21028E+1
1.17200E+2,1.19000E+2,1.53260E+2,-3.42605E+1,6.21404E+1
1.17340E+2,2.24000E+2,2.22354E+2,1.64633E+0,6.21782E+1
1.17480E+2,1.04000E+2,9.96043E+1,4.39567E+0,6.22161E+1
1.17620E+2,6.80000E+1,8.29294E+1,-1.49294E+1,6.22541E+1
1.17760E+2,1.47000E+2,1.32080E+2,1.49197E+1,6.22921E+1
1.17900E+2,9.40000E+1,1.00666E+2,-6.66646E+0,6.23303E+1
1.18040E+2,7.40000E+1,7.33837E+1,6.16280E-1,6.23686E+1
1.18180E+2,6.70000E+1,6.70824E+1,-8.23822E-2,6.24069E+1
1.18320E+2,7.50000E+1,6.61318E+1,8.86822E+0,6.24454E+1
1.18460E+2,7.30000E+1,6.96524E+1,3.34763E+0,6.24840E+1
1.18600E+2,7.20000E+1,6.70140E+1,4.98595E+0,6.25226E+1
1.18740E+2,7.20000E+1,7.10172E+1,9.82773E-1,6.25615E+1
1.18880E+2,1.22000E+2,1.07315E+2,1.46845E+1,6.26004E+1
1.19020E+2,9.00000E+1,8.89163E+1,1.08370E+0,6.26395E+1
1.19160E+2,8.60000E+1,8.05531E+1,5.44691E+0,6.26787E+1
1.19300E+2,1.57000E+2,1.46040E+2,1.09600E+1,6.27181E+1
1.19440E+2,1.17000E+2,1.16682E+2,3.17551E-1,6.27577E+1
1.19580E+2,9.60000E+1,7.56400E+1,2.03600E+1,6.27974E+1
1.19720E+2,5.80000E+1,8.09048E+1,-2.29048E+1,6.28374E+1
1.19860E+2,1.01000E+2,1.01688E+2,-6.87798E-1,6.28776E+1
1.20000E+2,7.60000E+1,7.06539E+1,5.34611E+0,6.29181E+1
1.20140E+2,5.80000E+1,6.68984E+1,-8.89842E+0,6.29588E+1
1.20280E+2,5.60000E+1,6.69725E+1,-1.09725E+1,6.29999E+1
1.20420E+2,7.00000E+1,7.12959E+1,-1.29588E+0,6.30412E+1
1.20560E+2,7.20000E+1,8.00816E+1,-8.08160E+0,6.30829E+1
1.20700E+2,9.70000E+1,8.29188E+1,1.40812E+1,6.31250E+1
1.20840E+2,1.60000E+2,1.58284E+2,1.71645E+0,6.31675E+1
1.20980E+2,9.40000E+1,9.47615E+1,-7.61520E-1,6.32105E+1
1.21120E+2,7.80000E+1,7.55978E+1,2.40218E+0,6.32540E+1
1.21260E+2,8.30000E+1,8.47390E+1,-1.73895E+0,6.32980E+1
1.21400E+2,1.19000E+2,1.02714E+2,1.62864E+1,6.33425E+1
1.21540E+2,7.50000E+1,7.90444E+1,-4.04439E+0,6.33877E+1
1.21680E+2,6.90000E+1,6.83750E+1,6.24977E-1,6.34336E+1
1.21820E+2,5.60000E+1,6.70806E+1,-1.10806E+1,6.34801E+1
1.21960E+2,8.00000E+1,6.85448E+1,1.14552E+1,6.35275E+1
1.22100E+2,8.80000E+1,7.04119E+1,1.75881E+1,6.35756E+1
1.22240E+2,1.02000E+2,7.48871E+1,2.71129E+1,6.36247E+1
1.22380E+2,8.60000E+1,9.20873E+1,-6.08732E+0,6.36747E+1
1.22520E+2,2.01000E+2,1.77687E+2,2.33130E+1,6.37257E+1
1.22660E+2,1.14000E+2,1.14621E+2,-6.20987E-1,6.37779E+1
1.22800E+2,8.80000E+1,8.63089E+1,1.69113E+0,6.38311E+1
1.22940E+2,7.80000E+1,9.35881E+1,-1.55881E+1,6.38856E+1
1.23080E+2,1.60000E+2,1.36574E+2,2.34257E+1,6.39415E+1
1.23220E+2,1.63000E+2,1.45173E+2,1.78267E+1,6.39987E+1
1.23360E+2,1.61000E+2,1.66372E+2,-5.37238E+0,6.40574E+1
1.23500E+2,2.08000E+2,1.90339E+2,1.76609E+1,6.41177E+1
1.23640E+2,1.86000E+2,1.84350E+2,1.65001E+0,6.41796E+1
1.23780E+2,1.60000E+2,1.35230E+2,2.47704E+1,6.42433E+1
1.23920E+2,1.50000E+2,1.42275E+2,7.72472E+0,6.43089E+1
1.24060E+2,1.83000E+2,1.74296E+2,8.70438E+0,6.43765E+1
1.24200E+2,1.19000E+2,1.27934E+2,-8.93395E+0,6.44462E+1
1.24340E+2,1.14000E+2,1.01020E+2,1.29797E+1,6.45181E+1
1.24480E+2,1.54000E+2,1.66377E+2,-1.23770E+1,6.45923E+1
1.24620E+2,3.02000E+2,2.99887E+2,2.11340E+0,6.46690E+1
1.24760E+2,1.09000E+2,1.25244E+2,-1.62438E+1,6.47483E+1
1.24900E+2,1.02000E+2,9.46240E+1,7.37598E+0,6.48303E+1
1.25040E+2,1.32000E+2,1.30371E+2,1.62878E+0,6.49152E+1
1.25180E+2,2.12000E+2,2.20677E+2,-8.67728E+0,6.50031E+1
1.25320E+2,1.10000E+2,9.69257E+1,1.30743E+1,6.50942E+1
1.25460E+2,7.80000E+1,7.77374E+1,2.62581E-1,6.51886E+1
1.25600E+2,1.01000E+2,7.77311E+1,2.32689E+1,6.52864E+1
1.25740E+2,9.30000E+1,8.99408E+1,3.05920E+0,6.53880E+1
1.25880E+2,6.80000E+1,7.28747E+1,-4.87475E+0,6.54934E+1
1.26020E+2,7.80000E+1,7.18133E+1,6.18668E+0,6.56028E+1
1.26160E+2,7.70000E+1,7.38597E+1,3.14034E+0,6.57164E+1
1.26300E+2,8.10000E+1,8.52980E+1,-4.29800E+0,6.58345E+1
1.26440E+2,1.48000E+2,1.35186E+2,1.28138E+1,6.59571E+1
1.26580E+2,8.40000E+1,9.16138E+1,-7.61378E+0,6.60845E+1
1.26720E+2,9.90000E+1,9.53525E+1,3.64753E+0,6.62170E+1
1.26860E+2,1.46000E+2,1.49388E+2,-3.38789E+0,6.63547E+1
1.27000E+2,3.08000E+2,2.96853E+2,1.11474E+1,6.64979E+1
1.27140E+2,2.35000E+2,2.32837E+2,2.16266E+0,6.66468E+1
1.27280E+2,1.44000E+2,1.72646E+2,-2.86463E+1,6.68017E+1
1.27420E+2,2.12000E+2,2.22893E+2,-1.08930E+1,6.69628E+1
1.27560E+2,1.99000E+2,2.11060E+2,-1.20604E+1,6.71303E+1
1.27700E+2,2.38000E+2,2.37075E+2,9.25354E-1,6.73046E+1
1.27840E+2,2.94000E+2,2.89484E+2,4.51599E+0,6.74859E+1
1.27980E+2,1.84000E+2,1.74979E+2,9.02133E+0,6.76745E+1
1.28120E+2,1.18000E+2,1.04547E+2,1.34527E+1,6.78707E+1
1.28260E+2,1.20000E+2,1.14802E+2,5.19801E+0,6.80748E+1
1.28400E+2,1.68000E+2,1.76914E+2,-8.91360E+0,6.82870E+1
1.28540E+2,9.70000E+1,9.48427E+1,2.15727E+0,6.85078E+1
1.28680E+2,8.90000E+1,7.89668E+1,1.00332E+1,6.87375E+1
1.28820E+2,8.80000E+1,7.73845E+1,1.06155E+1,6.89763E+1
1.28960E+2,7.10000E+1,7.42495E+1,-3.24952E+0,6.92247E+1
1.29100E+2,6.10000E+1,7.32761E+1,-1.22761E+1,6.94830E+1
1.29240E+2,5.90000E+1,7.44016E+1,-1.54016E+1,6.97515E+1
1.29380E+2,7.80000E+1,7.76566E+1,3.43445E-1,7.00307E+1
1.29520E+2,7.80000E+1,8.81918E+1,-1.01918E+1,7.03209E+1
1.29660E+2,1.65000E+2,1.52650E+2,1.23503E+1,7.06225E+1
1.29800E+2,1.40000E+2,1.32488E+2,7.51219E+0,7.09359E+1
1.29940E+2,8.20000E+1,8.63330E+1,-4.33301E+0,7.12617E+1
1.30000E+2,8.40000E+1,8.29340E+1,1.06605E+0,7.14051E+1